{
  "resourceType": "CarePlan",
  "id": "f203",
  "text": {
    "status": "generated",
    "div": "\u003cdiv xmlns\u003d\"http://www.w3.org/1999/xhtml\"\u003e\u003cp\u003e\u003cb\u003eGenerated Narrative\u003c/b\u003e\u003c/p\u003e\u003cdiv style\u003d\"display: inline-block; background-color: #d9e0e7; padding: 6px; margin: 4px; border: 1px solid #8da1b4; border-radius: 5px; line-height: 60%\"\u003e\u003cp style\u003d\"margin-bottom: 0px\"\u003eResource \u0026quot;f203\u0026quot; \u003c/p\u003e\u003c/div\u003e\u003cp\u003e\u003cb\u003estatus\u003c/b\u003e: completed\u003c/p\u003e\u003cp\u003e\u003cb\u003eintent\u003c/b\u003e: plan\u003c/p\u003e\u003cp\u003e\u003cb\u003esubject\u003c/b\u003e: \u003ca href\u003d\"patient-f201.html\"\u003ePatient/f201: Roel\u003c/a\u003e \u0026quot;Roel\u0026quot;\u003c/p\u003e\u003cp\u003e\u003cb\u003eperiod\u003c/b\u003e: 2013-04-14 --\u0026gt; 2013-04-21\u003c/p\u003e\u003cp\u003e\u003cb\u003ecareTeam\u003c/b\u003e: \u003ca name\u003d\"careteam\"\u003e \u003c/a\u003e\u003c/p\u003e\u003cblockquote\u003e\u003cdiv style\u003d\"display: inline-block; background-color: #d9e0e7; padding: 6px; margin: 4px; border: 1px solid #8da1b4; border-radius: 5px; line-height: 60%\"\u003e\u003cp style\u003d\"margin-bottom: 0px\"\u003eResource \u0026quot;careteam\u0026quot; \u003c/p\u003e\u003c/div\u003e\u003cblockquote\u003e\u003cp\u003e\u003cb\u003eparticipant\u003c/b\u003e\u003c/p\u003e\u003cp\u003e\u003cb\u003erole\u003c/b\u003e: Review of care plan \u003cspan style\u003d\"background: LightGoldenRodYellow; margin: 4px; border: 1px solid khaki\"\u003e (\u003ca href\u003d\"https://browser.ihtsdotools.org/\"\u003eSNOMED CT\u003c/a\u003e#425268008)\u003c/span\u003e\u003c/p\u003e\u003cp\u003e\u003cb\u003emember\u003c/b\u003e: \u003ca href\u003d\"practitioner-f201.html\"\u003ePractitioner/f201: Dokter Bronsig\u003c/a\u003e \u0026quot;Dokter Bronsig\u0026quot;\u003c/p\u003e\u003c/blockquote\u003e\u003cblockquote\u003e\u003cp\u003e\u003cb\u003eparticipant\u003c/b\u003e\u003c/p\u003e\u003cp\u003e\u003cb\u003erole\u003c/b\u003e: Radiographic imaging \u003cspan style\u003d\"background: LightGoldenRodYellow; margin: 4px; border: 1px solid khaki\"\u003e (\u003ca href\u003d\"https://browser.ihtsdotools.org/\"\u003eSNOMED CT\u003c/a\u003e#278110001)\u003c/span\u003e\u003c/p\u003e\u003cp\u003e\u003cb\u003emember\u003c/b\u003e: \u003ca href\u003d\"practitioner-f202.html\"\u003ePractitioner/f202: Luigi Maas\u003c/a\u003e \u0026quot;Luigi Maas\u0026quot;\u003c/p\u003e\u003c/blockquote\u003e\u003c/blockquote\u003e\u003cp\u003e\u003cb\u003eaddresses\u003c/b\u003e: \u003ca href\u003d\"condition-f203.html\"\u003eCondition/f203: Roel\u0027s sepsis\u003c/a\u003e\u003c/p\u003e\u003cp\u003e\u003cb\u003egoal\u003c/b\u003e: \u003ca name\u003d\"goal\"\u003e \u003c/a\u003e\u003c/p\u003e\u003cblockquote\u003e\u003cdiv style\u003d\"display: inline-block; background-color: #d9e0e7; padding: 6px; margin: 4px; border: 1px solid #8da1b4; border-radius: 5px; line-height: 60%\"\u003e\u003cp style\u003d\"margin-bottom: 0px\"\u003eResource \u0026quot;goal\u0026quot; \u003c/p\u003e\u003c/div\u003e\u003cp\u003e\u003cb\u003elifecycleStatus\u003c/b\u003e: cancelled\u003c/p\u003e\u003cp\u003e\u003cb\u003edescription\u003c/b\u003e: Check whether further treatment of sepsis/pulmonary abcess is required \u003cspan style\u003d\"background: LightGoldenRodYellow; margin: 4px; border: 1px solid khaki\"\u003e ()\u003c/span\u003e\u003c/p\u003e\u003cp\u003e\u003cb\u003esubject\u003c/b\u003e: \u003ca href\u003d\"patient-f201.html\"\u003ePatient/f201: Roel\u003c/a\u003e \u0026quot;Roel\u0026quot;\u003c/p\u003e\u003c/blockquote\u003e\u003cblockquote\u003e\u003cp\u003e\u003cb\u003eactivity\u003c/b\u003e\u003c/p\u003e\u003ch3\u003eDetails\u003c/h3\u003e\u003ctable class\u003d\"grid\"\u003e\u003ctr\u003e\u003ctd\u003e-\u003c/td\u003e\u003ctd\u003e\u003cb\u003eKind\u003c/b\u003e\u003c/td\u003e\u003ctd\u003e\u003cb\u003eCode\u003c/b\u003e\u003c/td\u003e\u003ctd\u003e\u003cb\u003eStatus\u003c/b\u003e\u003c/td\u003e\u003ctd\u003e\u003cb\u003eDoNotPerform\u003c/b\u003e\u003c/td\u003e\u003c/tr\u003e\u003ctr\u003e\u003ctd\u003e*\u003c/td\u003e\u003ctd\u003eServiceRequest\u003c/td\u003e\u003ctd\u003eHigh resolution computed tomography of lungs \u003cspan style\u003d\"background: LightGoldenRodYellow; margin: 4px; border: 1px solid khaki\"\u003e (\u003ca href\u003d\"https://browser.ihtsdotools.org/\"\u003eSNOMED CT\u003c/a\u003e#241541005)\u003c/span\u003e\u003c/td\u003e\u003ctd\u003enot-started\u003c/td\u003e\u003ctd\u003efalse\u003c/td\u003e\u003c/tr\u003e\u003c/table\u003e\u003c/blockquote\u003e\u003c/div\u003e"
  },
  "contained": [
    {
      "resourceType": "CareTeam",
      "id": "careteam",
      "participant": [
        {
          "role": [
            {
              "coding": [
                {
                  "system": "http://snomed.info/sct",
                  "code": "425268008",
                  "display": "Review of care plan"
                }
              ]
            }
          ],
          "member": {
            "reference": "Practitioner/f201",
            "display": "Dokter Bronsig"
          }
        },
        {
          "role": [
            {
              "coding": [
                {
                  "system": "http://snomed.info/sct",
                  "code": "278110001",
                  "display": "Radiographic imaging"
                }
              ]
            }
          ],
          "member": {
            "reference": "Practitioner/f202",
            "display": "Luigi Maas"
          }
        }
      ]
    },
    {
      "resourceType": "Goal",
      "id": "goal",
      "lifecycleStatus": "cancelled",
      "description": {
        "text": "Check whether further treatment of sepsis/pulmonary abcess is required"
      },
      "subject": {
        "reference": "Patient/f201",
        "display": "Roel"
      }
    }
  ],
  "status": "completed",
  "intent": "plan",
  "subject": {
    "reference": "Patient/f201",
    "display": "Roel"
  },
  "period": {
    "start": "2013-04-14",
    "end": "2013-04-21"
  },
  "careTeam": [
    {
      "reference": "#careteam"
    }
  ],
  "addresses": [
    {
      "reference": "Condition/f203",
      "display": "Roel\u0027s sepsis"
    }
  ],
  "goal": [
    {
      "reference": "#goal"
    }
  ],
  "activity": [
    {
      "detail": {
        "kind": "ServiceRequest",
        "code": {
          "coding": [
            {
              "system": "http://snomed.info/sct",
              "code": "241541005",
              "display": "High resolution computed tomography of lungs"
            }
          ]
        },
        "status": "not-started",
        "doNotPerform": false
      }
    }
  ],
  "meta": {
    "tag": [
      {
        "system": "http://terminology.hl7.org/CodeSystem/v3-ActReason",
        "code": "HTEST",
        "display": "test health data"
      }
    ]
  }
}