{
  "resourceType": "GuidanceResponse",
  "id": "example",
  "text": {
    "status": "generated",
    "div": "\u003cdiv xmlns\u003d\"http://www.w3.org/1999/xhtml\"\u003e\u003cp\u003e\u003cb\u003eGenerated Narrative\u003c/b\u003e\u003c/p\u003e\u003cdiv style\u003d\"display: inline-block; background-color: #d9e0e7; padding: 6px; margin: 4px; border: 1px solid #8da1b4; border-radius: 5px; line-height: 60%\"\u003e\u003cp style\u003d\"margin-bottom: 0px\"\u003eResource \u0026quot;example\u0026quot; \u003c/p\u003e\u003c/div\u003e\u003cp\u003e\u003cb\u003erequestIdentifier\u003c/b\u003e: id: guidanceRequest1\u003c/p\u003e\u003cp\u003e\u003cb\u003eidentifier\u003c/b\u003e: id: guidanceResponse1\u003c/p\u003e\u003cp\u003e\u003cb\u003emodule\u003c/b\u003e: \u003ca href\u003d\"http://someguidelineprovider.org/radiology-appropriateness-guidelines.html\"\u003ehttp://someguidelineprovider.org/radiology-appropriateness-guidelines.html\u003c/a\u003e\u003c/p\u003e\u003cp\u003e\u003cb\u003estatus\u003c/b\u003e: success\u003c/p\u003e\u003cp\u003e\u003cb\u003esubject\u003c/b\u003e: \u003ca href\u003d\"patient-example.html\"\u003ePatient/example\u003c/a\u003e \u0026quot;Peter CHALMERS\u0026quot;\u003c/p\u003e\u003cp\u003e\u003cb\u003eencounter\u003c/b\u003e: \u003ca href\u003d\"encounter-example.html\"\u003eEncounter/example\u003c/a\u003e\u003c/p\u003e\u003cp\u003e\u003cb\u003eoccurrenceDateTime\u003c/b\u003e: 2017-03-10T16:02:00Z\u003c/p\u003e\u003cp\u003e\u003cb\u003eperformer\u003c/b\u003e: \u003ca href\u003d\"todo.html\"\u003eDevice/software\u003c/a\u003e\u003c/p\u003e\u003cp\u003e\u003cb\u003ereasonCode\u003c/b\u003e: Guideline Appropriate Ordering Assessment \u003cspan style\u003d\"background: LightGoldenRodYellow; margin: 4px; border: 1px solid khaki\"\u003e ()\u003c/span\u003e\u003c/p\u003e\u003cp\u003e\u003cb\u003eoutputParameters\u003c/b\u003e: \u003ca name\u003d\"outputParameters1\"\u003e \u003c/a\u003e\u003c/p\u003e\u003cblockquote\u003e\u003cdiv style\u003d\"display: inline-block; background-color: #d9e0e7; padding: 6px; margin: 4px; border: 1px solid #8da1b4; border-radius: 5px; line-height: 60%\"\u003e\u003cp style\u003d\"margin-bottom: 0px\"\u003eResource \u0026quot;outputParameters1\u0026quot; \u003c/p\u003e\u003c/div\u003e\u003cblockquote\u003e\u003cp\u003e\u003cb\u003eparameter\u003c/b\u003e\u003c/p\u003e\u003cp\u003e\u003cb\u003ename\u003c/b\u003e: score\u003c/p\u003e\u003cp\u003e\u003cb\u003evalue\u003c/b\u003e: 7\u003c/p\u003e\u003c/blockquote\u003e\u003cblockquote\u003e\u003cp\u003e\u003cb\u003eparameter\u003c/b\u003e\u003c/p\u003e\u003cp\u003e\u003cb\u003ename\u003c/b\u003e: item-assessed\u003c/p\u003e\u003cp\u003e\u003cb\u003evalue\u003c/b\u003e: CT, head, wo iv contrast \u003cspan style\u003d\"background: LightGoldenRodYellow; margin: 4px; border: 1px solid khaki\"\u003e (\u003ca href\u003d\"http://terminology.hl7.org/3.1.0/CodeSystem-CPT.html\"\u003eCurrent Procedural Terminology (CPT®)\u003c/a\u003e#70450)\u003c/span\u003e\u003c/p\u003e\u003c/blockquote\u003e\u003cblockquote\u003e\u003cp\u003e\u003cb\u003eparameter\u003c/b\u003e\u003c/p\u003e\u003cp\u003e\u003cb\u003ename\u003c/b\u003e: device\u003c/p\u003e\u003cp\u003e\u003cb\u003evalue\u003c/b\u003e: \u003ca href\u003d\"todo.html\"\u003eDevice/software\u003c/a\u003e\u003c/p\u003e\u003c/blockquote\u003e\u003cblockquote\u003e\u003cp\u003e\u003cb\u003eparameter\u003c/b\u003e\u003c/p\u003e\u003cp\u003e\u003cb\u003ename\u003c/b\u003e: guideline-followed\u003c/p\u003e\u003cp\u003e\u003cb\u003evalue\u003c/b\u003e: \u003ca href\u003d\"http://someguidelineprovider.org/radiology-appropriateness-guidelines.html\"\u003ehttp://someguidelineprovider.org/radiology-appropriateness-guidelines.html\u003c/a\u003e\u003c/p\u003e\u003c/blockquote\u003e\u003c/blockquote\u003e\u003c/div\u003e"
  },
  "contained": [
    {
      "resourceType": "Parameters",
      "id": "outputParameters1",
      "parameter": [
        {
          "name": "score",
          "valueDecimal": 7
        },
        {
          "name": "item-assessed",
          "valueCodeableConcept": {
            "coding": [
              {
                "system": "http://www.ama-assn.org/go/cpt",
                "code": "70450",
                "display": "CT, head, wo iv contrast"
              }
            ]
          }
        },
        {
          "name": "device",
          "valueReference": {
            "reference": "Device/software"
          }
        },
        {
          "name": "guideline-followed",
          "valueUri": "http://someguidelineprovider.org/radiology-appropriateness-guidelines.html"
        }
      ]
    }
  ],
  "requestIdentifier": {
    "system": "http://example.org",
    "value": "guidanceRequest1"
  },
  "identifier": [
    {
      "system": "http://example.org",
      "value": "guidanceResponse1"
    }
  ],
  "moduleUri": "http://someguidelineprovider.org/radiology-appropriateness-guidelines.html",
  "status": "success",
  "subject": {
    "reference": "Patient/example"
  },
  "encounter": {
    "reference": "Encounter/example"
  },
  "occurrenceDateTime": "2017-03-10T16:02:00Z",
  "performer": {
    "reference": "Device/software"
  },
  "reasonCode": [
    {
      "text": "Guideline Appropriate Ordering Assessment"
    }
  ],
  "outputParameters": {
    "reference": "#outputParameters1"
  },
  "meta": {
    "tag": [
      {
        "system": "http://terminology.hl7.org/CodeSystem/v3-ActReason",
        "code": "HTEST",
        "display": "test health data"
      }
    ]
  }
}