{
  "resourceType": "MedicinalProductDefinition",
  "id": "drug-combo-product",
  "text": {
    "status": "generated",
    "div": "\u003cdiv xmlns\u003d\"http://www.w3.org/1999/xhtml\"\u003e\n\t\t\t\u003cp\u003e\n\t\t\t\t\u003cb\u003e\n\t\t\t\t\tGenerated Narrative\n\t\t\t\t\u003c/b\u003e\n\t\t\t\u003c/p\u003e\n\t\t\t\u003cp\u003e\n\t\t\t\t\u003cb\u003e\n\t\t\t\t\tid\n\t\t\t\t\u003c/b\u003e\n\t\t\t\t: drug-combo-product\n\t\t\t\u003c/p\u003e\n\t\t\t\u003cp\u003e\n\t\t\t\t\u003cb\u003e\n\t\t\t\t\tidentifier\n\t\t\t\t\u003c/b\u003e\n\t\t\t\t: id: ThrushTreatCombo\n\t\t\t\u003c/p\u003e\n\t\t\t\u003cp\u003e\n\t\t\t\t\u003cb\u003e\n\t\t\t\t\tcombinedPharmaceuticalDoseForm\n\t\t\t\t\u003c/b\u003e\n\t\t\t\t:\n\t\t\t\t\u003cspan title\u003d\"Codes: {http://example.org.uk/fhir/doseform Tablet and Cream for topical application}\"\u003e\n\t\t\t\t\tTablet and Cream for topical application\n\t\t\t\t\u003c/span\u003e\n\t\t\t\u003c/p\u003e\n\t\t\t\u003cp\u003e\n\t\t\t\t\u003cb\u003e\n\t\t\t\t\tpackagedMedicinalProduct\n\t\t\t\t\u003c/b\u003e\n\t\t\t\t:\n\t\t\t\t\u003ca name\u003d\"packageCombo\"/\u003e\n\t\t\t\u003c/p\u003e\n\t\t\t\u003cblockquote\u003e\n\t\t\t\t\u003cp\u003e\n\t\t\t\t\t\u003cb\u003e\n\t\t\t\t\t\tid\n\t\t\t\t\t\u003c/b\u003e\n\t\t\t\t\t:packageCombo\n\t\t\t\t\u003c/p\u003e\n\t\t\t\t\u003cblockquote\u003e\n\t\t\t\t\t\u003cp\u003e\n\t\t\t\t\t\t\u003cb\u003e\n\t\t\t\t\t\t\tpackage (outer)\n\t\t\t\t\t\t\u003c/b\u003e\n\t\t\t\t\t\u003c/p\u003e\n\t\t\t\t\t\u003cp\u003e\n\t\t\t\t\t\t\u003cb\u003e\n\t\t\t\t\t\t\ttype\n\t\t\t\t\t\t\u003c/b\u003e\n\t\t\t\t\t\t:\n\t\t\t\t\t\t\u003cspan title\u003d\"Codes: \"\u003e\n\t\t\t\t\t\t\tBox\n\t\t\t\t\t\t\u003c/span\u003e\n\t\t\t\t\t\u003c/p\u003e\n\t\t\t\t\t\u003cblockquote\u003e\n\t\t\t\t\t\t\u003cp\u003e\n\t\t\t\t\t\t\t\u003cb\u003e\n\t\t\t\t\t\t\t\tPackage (inner 1)\n\t\t\t\t\t\t\t\u003c/b\u003e\n\t\t\t\t\t\t\u003c/p\u003e\n\t\t\t\t\t\t\u003cp\u003e\n\t\t\t\t\t\t\t\u003cb\u003e\n\t\t\t\t\t\t\t\tType\n\t\t\t\t\t\t\t\u003c/b\u003e\n\t\t\t\t\t\t\t: Blister pack\n\t\t\t\t\t\t\u003c/p\u003e\n\t\t\t\t\t\t\u003cp\u003e\n\t\t\t\t\t\t\t\u003cb\u003e\n\t\t\t\t\t\t\t\tItems quantity\n\t\t\t\t\t\t\t\u003c/b\u003e\n\t\t\t\t\t\t\t: 1\n\t\t\t\t\t\t\u003c/p\u003e\n\t\t\t\t\t\t\u003cblockquote\u003e\n\t\t\t\t\t\t\t\u003cp\u003e\n\t\t\t\t\t\t\t\t\u003cb\u003e\n\t\t\t\t\t\t\t\t\tForm\n\t\t\t\t\t\t\t\t\u003c/b\u003e\n\t\t\t\t\t\t\t\t: Tablet\n\t\t\t\t\t\t\t\u003c/p\u003e\n\t\t\t\t\t\t\t\u003cblockquote\u003e\n\t\t\t\t\t\t\t\t\u003cp\u003e\n\t\t\t\t\t\t\t\t\t\u003cb\u003e\n\t\t\t\t\t\t\t\t\t\tIngredient\n\t\t\t\t\t\t\t\t\t\u003c/b\u003e\n\t\t\t\t\t\t\t\t\t: 150mg fluconazole\n\t\t\t\t\t\t\t\t\u003c/p\u003e\n\t\t\t\t\t\t\t\u003c/blockquote\u003e\n\t\t\t\t\t\t\u003c/blockquote\u003e\n\t\t\t\t\t\u003c/blockquote\u003e\n\t\t\t\t\t\u003cblockquote\u003e\n\t\t\t\t\t\t\u003cp\u003e\n\t\t\t\t\t\t\t\u003cb\u003e\n\t\t\t\t\t\t\t\tPackage (inner 2)\n\t\t\t\t\t\t\t\u003c/b\u003e\n\t\t\t\t\t\t\u003c/p\u003e\n\t\t\t\t\t\t\u003cp\u003e\n\t\t\t\t\t\t\t\u003cb\u003e\n\t\t\t\t\t\t\t\tType\n\t\t\t\t\t\t\t\u003c/b\u003e\n\t\t\t\t\t\t\t: Tube\n\t\t\t\t\t\t\u003c/p\u003e\n\t\t\t\t\t\t\u003cp\u003e\n\t\t\t\t\t\t\t\u003cb\u003e\n\t\t\t\t\t\t\t\tItems quantity\n\t\t\t\t\t\t\t\u003c/b\u003e\n\t\t\t\t\t\t\t: 20g\n\t\t\t\t\t\t\u003c/p\u003e\n\t\t\t\t\t\t\u003cblockquote\u003e\n\t\t\t\t\t\t\t\u003cp\u003e\n\t\t\t\t\t\t\t\t\u003cb\u003e\n\t\t\t\t\t\t\t\t\tPackage Item\n\t\t\t\t\t\t\t\t\u003c/b\u003e\n\t\t\t\t\t\t\t\t: Cap\n\t\t\t\t\t\t\t\u003c/p\u003e\n\t\t\t\t\t\t\u003c/blockquote\u003e\n\t\t\t\t\t\t\u003cblockquote\u003e\n\t\t\t\t\t\t\t\u003cp\u003e\n\t\t\t\t\t\t\t\t\u003cb\u003e\n\t\t\t\t\t\t\t\t\tForm\n\t\t\t\t\t\t\t\t\u003c/b\u003e\n\t\t\t\t\t\t\t\t: Cream for topical application\n\t\t\t\t\t\t\t\u003c/p\u003e\n\t\t\t\t\t\t\t\u003cblockquote\u003e\n\t\t\t\t\t\t\t\t\u003cp\u003e\n\t\t\t\t\t\t\t\t\t\u003cb\u003e\n\t\t\t\t\t\t\t\t\t\tIngredient\n\t\t\t\t\t\t\t\t\t\u003c/b\u003e\n\t\t\t\t\t\t\t\t\t: 2% w/w clotrimazole\n\t\t\t\t\t\t\t\t\u003c/p\u003e\n\t\t\t\t\t\t\t\u003c/blockquote\u003e\n\t\t\t\t\t\t\u003c/blockquote\u003e\n\t\t\t\t\t\u003c/blockquote\u003e\n\t\t\t\t\u003c/blockquote\u003e\n\t\t\t\u003c/blockquote\u003e\n\t\t\t\u003ch3\u003e\n\t\t\t\tNames\n\t\t\t\u003c/h3\u003e\n\t\t\t\u003ctable class\u003d\"grid\"\u003e\n\t\t\t\t\u003ctr\u003e\n\t\t\t\t\t\u003ctd\u003e\n\t\t\t\t\t\t-\n\t\t\t\t\t\u003c/td\u003e\n\t\t\t\t\t\u003ctd\u003e\n\t\t\t\t\t\t\u003cb\u003e\n\t\t\t\t\t\t\tProductName\n\t\t\t\t\t\t\u003c/b\u003e\n\t\t\t\t\t\u003c/td\u003e\n\t\t\t\t\u003c/tr\u003e\n\t\t\t\t\u003ctr\u003e\n\t\t\t\t\t\u003ctd\u003e\n\t\t\t\t\t\t*\n\t\t\t\t\t\u003c/td\u003e\n\t\t\t\t\t\u003ctd\u003e\n\t\t\t\t\t\tThrushTreat Combo\n\t\t\t\t\t\u003c/td\u003e\n\t\t\t\t\u003c/tr\u003e\n\t\t\t\u003c/table\u003e\n\t\t\u003c/div\u003e"
  },
  "contained": [
    {
      "resourceType": "PackagedProductDefinition",
      "id": "packageCombo",
      "packageFor": [
        {
          "reference": "#"
        }
      ],
      "package": {
        "type": {
          "coding": [
            {
              "code": "Box"
            }
          ]
        },
        "package": [
          {
            "type": {
              "coding": [
                {
                  "code": "blister pack"
                }
              ]
            },
            "containedItem": [
              {
                "item": {
                  "reference": {
                    "reference": "#tabletItem"
                  }
                },
                "amount": {
                  "value": 1
                }
              }
            ]
          },
          {
            "type": {
              "coding": [
                {
                  "code": "tube"
                }
              ]
            },
            "containedItem": [
              {
                "item": {
                  "reference": {
                    "reference": "#creamItem"
                  }
                },
                "amount": {
                  "value": 20,
                  "unit": "g",
                  "system": "http://unitsofmeasure.org",
                  "code": "g"
                }
              }
            ],
            "package": [
              {
                "type": {
                  "coding": [
                    {
                      "code": "cap"
                    }
                  ]
                }
              }
            ]
          }
        ]
      }
    },
    {
      "resourceType": "ManufacturedItemDefinition",
      "id": "tabletItem",
      "status": "active",
      "manufacturedDoseForm": {
        "coding": [
          {
            "system": "http://example.org.uk/fhir/doseform",
            "code": "tablet"
          }
        ]
      }
    },
    {
      "resourceType": "ManufacturedItemDefinition",
      "id": "creamItem",
      "status": "active",
      "manufacturedDoseForm": {
        "coding": [
          {
            "system": "http://example.org.uk/fhir/doseform",
            "code": "Cream for topical application"
          }
        ]
      }
    }
  ],
  "identifier": [
    {
      "system": "http://example.org.uk/fhir/product",
      "value": "ThrushTreatCombo"
    }
  ],
  "combinedPharmaceuticalDoseForm": {
    "coding": [
      {
        "system": "http://example.org.uk/fhir/doseform",
        "code": "Tablet and Cream for topical application"
      }
    ]
  },
  "name": [
    {
      "productName": "ThrushTreat Combo"
    }
  ],
  "meta": {
    "tag": [
      {
        "system": "http://terminology.hl7.org/CodeSystem/v3-ActReason",
        "code": "HTEST",
        "display": "test health data"
      }
    ]
  }
}