{
  "resourceType": "Bundle",
  "id": "920a46b7-045a-4773-82bd-8e90c3e15653",
  "type": "history",
  "timestamp": "2020-04-17T10:24:13.1882432-05:00",
  "entry": [
    {
      "fullUrl": "urn:uuid:dae6bdbc-71ab-4043-b11e-59b52bda60ad",
      "resource": {
        "resourceType": "SubscriptionStatus",
        "id": "dae6bdbc-71ab-4043-b11e-59b52bda60ad",
        "text": {
          "status": "generated",
          "div": "\u003cdiv xmlns\u003d\"http://www.w3.org/1999/xhtml\"\u003e\u003cp\u003e\u003cb\u003eGenerated Narrative\u003c/b\u003e\u003c/p\u003e\u003cdiv\u003e\u003cp\u003eResource \u0026quot;dae6bdbc-71ab-4043-b11e-59b52bda60ad\u0026quot; \u003c/p\u003e\u003c/div\u003e\u003cp\u003e\u003cb\u003estatus\u003c/b\u003e: active\u003c/p\u003e\u003cp\u003e\u003cb\u003etype\u003c/b\u003e: event-notification\u003c/p\u003e\u003cp\u003e\u003cb\u003eeventsSinceSubscriptionStart\u003c/b\u003e: 2\u003c/p\u003e\u003cp\u003e\u003cb\u003eeventsInNotification\u003c/b\u003e: 1\u003c/p\u003e\u003ch3\u003eNotificationEvents\u003c/h3\u003e\u003ctable\u003e\u003ctr\u003e\u003ctd\u003e-\u003c/td\u003e\u003ctd\u003e\u003cb\u003eEventNumber\u003c/b\u003e\u003c/td\u003e\u003ctd\u003e\u003cb\u003eFocus\u003c/b\u003e\u003c/td\u003e\u003ctd\u003e\u003cb\u003eAdditionalContext\u003c/b\u003e\u003c/td\u003e\u003c/tr\u003e\u003ctr\u003e\u003ctd\u003e*\u003c/td\u003e\u003ctd\u003e2\u003c/td\u003e\u003ctd\u003e\u003ca\u003ehttp://example.org/FHIR/R4/Encounter/2\u003c/a\u003e\u003c/td\u003e\u003ctd\u003e\u003ca\u003ehttp://example.org/FHIR/R4/Patient/ABC\u003c/a\u003e\u003c/td\u003e\u003c/tr\u003e\u003c/table\u003e\u003cp\u003e\u003cb\u003esubscription\u003c/b\u003e: \u003ca\u003ehttp://example.org/FHIR/R4/Subscription/123\u003c/a\u003e\u003c/p\u003e\u003cp\u003e\u003cb\u003etopic\u003c/b\u003e: \u003ca\u003ehttp://example.org/FHIR/R4/SubscriptionTopic/admission\u003c/a\u003e\u003c/p\u003e\u003c/div\u003e"
        },
        "status": "active",
        "type": "event-notification",
        "eventsSinceSubscriptionStart": "2",
        "eventsInNotification": 1,
        "notificationEvent": [
          {
            "eventNumber": "2",
            "focus": {
              "reference": "http://example.org/FHIR/R4/Encounter/2"
            },
            "additionalContext": [
              {
                "reference": "http://example.org/FHIR/R4/Patient/ABC"
              }
            ]
          }
        ],
        "subscription": {
          "reference": "http://example.org/FHIR/R4/Subscription/123"
        },
        "topic": "http://example.org/FHIR/R4/SubscriptionTopic/admission"
      },
      "request": {
        "method": "GET",
        "url": "Subscription/123/$status"
      },
      "response": {
        "status": "200"
      }
    },
    {
      "fullUrl": "http://example.org/FHIR/R4/Encounter/2",
      "request": {
        "method": "PUT",
        "url": "Encounter/2"
      },
      "response": {
        "status": "201"
      }
    },
    {
      "fullUrl": "http://example.org/FHIR/R4/Patient/ABC",
      "request": {
        "method": "GET",
        "url": "Patient/ABC"
      },
      "response": {
        "status": "200"
      }
    }
  ],
  "meta": {
    "tag": [
      {
        "system": "http://terminology.hl7.org/CodeSystem/v3-ActReason",
        "code": "HTEST",
        "display": "test health data"
      }
    ]
  }
}