<?xml version="1.0" encoding="UTF-8"?><Bundle xmlns="http://hl7.org/fhir">
  <id value="920a46b7-045a-4773-82bd-8e90c3e15653"/>
  <meta>
    <security>
      <system value="http://terminology.hl7.org/CodeSystem/v3-ActReason"/>
      <code value="HTEST"/>
      <display value="test health data"/>
    </security>
  </meta>
  <type value="history"/>
  <timestamp value="2020-04-17T10:24:13.1882432-05:00"/>
  <entry>
    <fullUrl value="urn:uuid:dae6bdbc-71ab-4043-b11e-59b52bda60ad"/>
    <resource>
      <SubscriptionStatus>
        <id value="dae6bdbc-71ab-4043-b11e-59b52bda60ad"/>
        <text><status value="generated"/><div xmlns="http://www.w3.org/1999/xhtml"><p><b>Generated Narrative</b></p><div style="display: inline-block; background-color: #d9e0e7; padding: 6px; margin: 4px; border: 1px solid #8da1b4; border-radius: 5px; line-height: 60%"><p style="margin-bottom: 0px">Resource "dae6bdbc-71ab-4043-b11e-59b52bda60ad" </p></div><p><b>status</b>: active</p><p><b>type</b>: event-notification</p><p><b>eventsSinceSubscriptionStart</b>: 2</p><h3>NotificationEvents</h3><table class="grid"><tr><td>-</td><td><b>EventNumber</b></td><td><b>Focus</b></td><td><b>AdditionalContext</b></td></tr><tr><td>*</td><td>2</td><td><a href="todo.html">http://example.org/FHIR/R4B/Encounter/2</a></td><td><a href="todo.html">http://example.org/FHIR/R4B/Patient/ABC</a></td></tr></table><p><b>subscription</b>: <a href="todo.html">http://example.org/FHIR/R4B/Subscription/123</a></p><p><b>topic</b>: <a href="http://example.org/FHIR/R4B/SubscriptionTopic/admission">http://example.org/FHIR/R4B/SubscriptionTopic/admission</a></p></div></text><status value="active"/>
        <type value="event-notification"/>
        <eventsSinceSubscriptionStart value="2"/>
        <notificationEvent>
          <eventNumber value="2"/>
          <focus>
            <reference value="http://example.org/FHIR/R4B/Encounter/2"/>
          </focus>
          <additionalContext>
            <reference value="http://example.org/FHIR/R4B/Patient/ABC"/>
          </additionalContext>
        </notificationEvent>
        <subscription>
          <reference value="http://example.org/FHIR/R4B/Subscription/123"/>
        </subscription>
        <topic value="http://example.org/FHIR/R4B/SubscriptionTopic/admission"/>
      </SubscriptionStatus>
    </resource>
    <request>
      <method value="GET"/>
      <url value="Subscription/123/$status"/>
    </request>
    <response>
      <status value="200"/>
    </response>
  </entry>
  <entry>
    <fullUrl value="http://example.org/FHIR/R4B/Encounter/2"/>
    <request>
      <method value="PUT"/>
      <url value="Encounter/2"/>
    </request>
    <response>
      <status value="201"/>
    </response>
  </entry>
  <entry>
    <fullUrl value="http://example.org/FHIR/R4B/Patient/ABC"/>
    <request>
      <method value="GET"/>
      <url value="Patient/ABC"/>
    </request>
    <response>
      <status value="200"/>
    </response>
  </entry>
</Bundle>