<?xml version="1.0" encoding="UTF-8"?><Bundle xmlns="http://hl7.org/fhir">
  <id value="0f322dbe-4f8d-4cbd-9ecb-bc8dc6f65f6a"/>
  <meta>
    <security>
      <system value="http://terminology.hl7.org/CodeSystem/v3-ActReason"/>
      <code value="HTEST"/>
      <display value="test health data"/>
    </security>
  </meta>
  <type value="message"/>
  <timestamp value="2020-04-17T10:24:13.1882432-05:00"/>
  <entry>
    <fullUrl value="urn:uuid:801728e4-75e9-42e6-b6d0-0cc3e835a70d"/>
    <resource>
      <MessageHeader>
        <id value="801728e4-75e9-42e6-b6d0-0cc3e835a70d"/>
        <text><status value="generated"/><div xmlns="http://www.w3.org/1999/xhtml"><p><b>Generated Narrative</b></p><div style="display: inline-block; background-color: #d9e0e7; padding: 6px; margin: 4px; border: 1px solid #8da1b4; border-radius: 5px; line-height: 60%"><p style="margin-bottom: 0px">Resource "801728e4-75e9-42e6-b6d0-0cc3e835a70d" </p></div><p><b>event</b>: subscription-notification (Details: http://example.org/fhir/message-events code subscription-notification = 'subscription-notification', stated as 'null')</p><h3>Sources</h3><table class="grid"><tr><td>-</td><td><b>Endpoint</b></td></tr><tr><td>*</td><td><a href="http://example.org/FHIR/R4">http://example.org/FHIR/R4</a></td></tr></table><p><b>focus</b>: <a href="todo.html">urn:uuid:c13b0b59-525c-4e41-b874-b5b87538a5b7</a></p></div></text><eventCoding>
          <system value="http://example.org/fhir/message-events"/>
          <code value="subscription-notification"/>
        </eventCoding>
        <source>
          <endpoint value="http://example.org/FHIR/R4"/>
        </source>
        <focus>
          <reference value="urn:uuid:c13b0b59-525c-4e41-b874-b5b87538a5b7"/>
        </focus>
      </MessageHeader>
    </resource>
  </entry>
  <entry>
    <fullUrl value="urn:uuid:c13b0b59-525c-4e41-b874-b5b87538a5b7"/>
    <resource>
      <Bundle>
        <id value="c13b0b59-525c-4e41-b874-b5b87538a5b7"/>
        <type value="history"/>
        <timestamp value="2020-04-17T10:24:13.1882432-05:00"/>
        <entry>
          <fullUrl value="urn:uuid:bef7e5fb-b5ad-4b59-a618-1bace2bbf5c0"/>
          <resource>
            <SubscriptionStatus>
              <id value="bef7e5fb-b5ad-4b59-a618-1bace2bbf5c0"/>
              <status value="active"/>
              <type value="event-notification"/>
              <eventsSinceSubscriptionStart value="2"/>
              <notificationEvent>
                <eventNumber value="2"/>
                <focus>
                  <reference value="http://example.org/FHIR/R4B/Encounter/2"/>
                </focus>
              </notificationEvent>
              <subscription>
                <reference value="http://example.org/FHIR/R4B/Subscription/123"/>
              </subscription>
              <topic value="http://example.org/FHIR/R4B/SubscriptionTopic/admission"/>
            </SubscriptionStatus>
          </resource>
          <request>
            <method value="GET"/>
            <url value="Subscription/123/$status"/>
          </request>
          <response>
            <status value="200"/>
          </response>
        </entry>
        <entry>
          <fullUrl value="https://example.org/FHIR/R4/Encounter/2"/>
          <resource>
            <Encounter>
              <id value="2"/>
              <meta>
                <versionId value="1"/>
                <lastUpdated value="2019-08-07T10:49:22Z"/>
              </meta>
              <status value="in-progress"/>
              <class>
                <system value="http://terminology.hl7.org/CodeSystem/v3-ActCode"/>
                <code value="VR"/>
                <display value="virtual"/>
              </class>
              <subject>
                <reference value="Patient/123"/>
              </subject>
            </Encounter>
          </resource>
          <request>
            <method value="PUT"/>
            <url value="Encounter/2"/>
          </request>
          <response>
            <status value="201"/>
          </response>
              </entry>
      </Bundle>
    </resource>
  </entry>
</Bundle>