<?xml version="1.0" encoding="UTF-8"?>

<Bundle xmlns="http://hl7.org/fhir">
  <id value="66c8856b-ba11-4876-8aa8-467aad8c11a2"/>
  <type value="searchset"/>
  <total value="1"/>
  <link>
    <relation value="self"/>
    <url value="http://52.90.126.238:8080/fhir/baseDstu3/PractitionerRole?_id=PractitionerRole-1&amp;_include=PractitionerRole%3Apractitioner&amp;_include=PractitionerRole%3Aendpoint"/>
  </link>
  <entry>
    <fullUrl value="http://52.90.126.238:8080/fhir/baseDstu3/PractitionerRole/PractitionerRole-1"/>
    <resource>
      <PractitionerRole>
        <id value="PractitionerRole-1"/>
        <meta>
          <profile value="http://hl7.org/fhir/us/core/StructureDefinition/us-core-practitionerrole"/>
        </meta>
        <text>
          <status value="generated"/><div xmlns="http://www.w3.org/1999/xhtml"><p><b>Generated Narrative</b></p><p><b>id</b>: PractitionerRole-1</p><p><b>meta</b>: </p><p><b>practitioner</b>: <a href="Practitioner/Practitioner-1011">Brenda Jennings Richard MD</a></p><p><b>organization</b>: <a href="Organization-acme-lab.html">Acme Lab. Generated Summary: id: acme-lab; 1144221847, 12D4567890; active; <span title="Codes: {http://terminology.hl7.org/CodeSystem/organization-type prov}">Healthcare Provider</span>; name: Acme Labs; ph: (+1) 734-677-7777, hq@acme.org</a></p><p><b>code</b>: <span title="Codes: {http://nucc.org/provider-taxonomy 261QP2300X}">Primary Care</span></p><p><b>specialty</b>: <span title="Codes: {http://nucc.org/provider-taxonomy 208D00000X}">General Practice</span></p><p><b>location</b>: <a href="Location-hl7east.html">Health Level Seven International. Generated Summary: id: hl7east; 29; status: active; name: Health Level Seven International - Amherst; description: HL7 Headquarters - East; ph: (+1) 734-677-7777</a></p><p><b>endpoint</b>: </p><ul><li><a href="http://52.90.126.238:8080/fhir/baseDstu3/Endpoint/Endpoint-71">Westwood Physicians Organization ADT</a></li><li><a href="http://52.90.126.238:8080/fhir/baseDstu3/Endpoint/Endpoint-71">Brenda.Jennings.Richard.MD@direct.example.org</a></li></ul></div>
        </text>
        <practitioner>
          <reference value="Practitioner/Practitioner-1011"/>
          <display value="Brenda Jennings Richard MD"/>
        </practitioner>
        <organization>
          <reference value="Organization/acme-lab"/>
          <display value="Acme Lab"/>
        </organization>
        <code>
          <coding>
            <system value="http://nucc.org/provider-taxonomy"/>
            <code value="261QP2300X"/>
            <display value="Primary Care"/>
          </coding>
        </code>
        <specialty>
          <coding>
            <system value="http://nucc.org/provider-taxonomy"/>
            <code value="208D00000X"/>
            <display value="General Practice"/>
          </coding>
        </specialty>
        <location>
          <reference value="Location/hl7east"/>
          <display value="Health Level Seven International"/>
        </location>
        <endpoint>
          <reference value="http://52.90.126.238:8080/fhir/baseDstu3/Endpoint/Endpoint-71"/>
          <display value="Westwood Physicians Organization ADT"/>
        </endpoint>
        <endpoint>
          <reference value="http://52.90.126.238:8080/fhir/baseDstu3/Endpoint/Endpoint-71"/>
          <display value="Brenda.Jennings.Richard.MD@direct.example.org"/>
        </endpoint>
      </PractitionerRole>
    </resource>
    <search>
      <mode value="match"/>
    </search>
  </entry>
  <entry>
    <fullUrl value="http://52.90.126.238:8080/fhir/baseDstu3/Practitioner/Practitioner-1011"/>
    <resource>
      <Practitioner>
        <id value="Practitioner-1011"/>
        <meta>
          <profile value="http://hl7.org/fhir/us/core/StructureDefinition/us-core-practitioner"/>
        </meta>
        <text>
          <status value="generated"/><div xmlns="http://www.w3.org/1999/xhtml"><p><b>Generated Narrative</b></p><p><b>id</b>: Practitioner-1011</p><p><b>meta</b>: </p><p><b>identifier</b>: 000001011 (OFFICIAL), 9999991011 (OFFICIAL), d46f70565a1042f6a6ece48dd81b408f (OFFICIAL)</p><p><b>name</b>: Brenda Jennings Richard </p><p><b>telecom</b>: ph: 313-555-6868(HOME), ph: 313-555-6443(WORK)</p><p><b>address</b>: 346 W Plum Avenu Dearborn MI 48123</p><p><b>gender</b>: female</p><p><b>birthDate</b>: 1976-11-15</p><h3>Qualifications</h3><table class="grid"><tr><td>-</td><td><b>Identifier</b></td><td><b>Code</b></td><td><b>Issuer</b></td></tr><tr><td>*</td><td>Michigan Medical License = LARA-1011 (OFFICIAL)</td><td><span title="Codes: {http://michigan.gov/lara/license-type 4305}">Medical Doctor</span></td><td><span>Michigan Department of Licensing and Regulatory Affairs</span></td></tr></table></div>
        </text>
        <identifier>
          <use value="official"/>
        <!--  causing unknown validation error
                   <type>
                        <coding>
                            <system value="http://terminology.hl7.org/CodeSystem/v2-0203"/>
                            <code value="SB"/>
                            <display value="Social Beneficiary Identifier"/>
                        </coding>
                        <text value="US Social Security Number"/>
                    </type>
                   -->
          <system value="http://hl7.org/fhir/sid/us-ssn"/>
          <value value="000001011"/>
        </identifier>
        <identifier>
          <use value="official"/>
        <!--  causing unknown validation error
                    <type>
                        <coding>
                            <system value="http://terminology.hl7.org/CodeSystem/v2-0203"/>
                            <code value="PRN"/>
                            <display value="Provider number"/>
                        </coding>
                        <text value="US National Provider Identifier"/>
                    </type>
                   -->
          <system value="http://hl7.org/fhir/sid/us-npi"/>
          <value value="9999991011"/>
        </identifier>
        <identifier>
          <use value="official"/>
        <!--  causing unknown validation error
                    <type>
                        <coding>
                            <system value="http://terminology.hl7.org/CodeSystem/v2-0203"/>
                            <code value="SB"/>
                            <display value="Social Beneficiary Identifier"/>
                        </coding>
                        <text value="Michigan Common Key Service Identifier"/>
                    </type>
                   -->
          <system value="http://mihin.org/fhir/cks"/>
          <value value="d46f70565a1042f6a6ece48dd81b408f"/>
        </identifier>
        <name>
          <family value="Richard"/>
          <given value="Brenda"/>
          <given value="Jennings"/>
          <suffix value="MD"/>
        </name>
        <telecom>
          <system value="phone"/>
          <value value="313-555-6868"/>
          <use value="home"/>
        </telecom>
        <telecom>
          <system value="phone"/>
          <value value="313-555-6443"/>
          <use value="work"/>
        </telecom>
        <address>
          <text value="346 W Plum Avenu Dearborn MI 48123"/>
          <line value="346 W Plum Avenue"/>
          <city value="Dearborn"/>
          <state value="MI"/>
          <postalCode value="48126"/>
        </address>
        <gender value="female"/>
        <birthDate value="1976-11-15"/>
        <qualification>
          <identifier>
            <use value="official"/>
            <type>
              <coding>
                <system value="http://terminology.hl7.org/CodeSystem/v2-0203"/>
                <code value="MD"/>
                <display value="Medical License number"/>
              </coding>
              <text value="Michigan Medical License"/>
            </type>
            <system value="http://michigan.gov/fhir/medical-license"/>
            <value value="LARA-1011"/>
            <assigner>
              <display value="State of Michigan"/>
            </assigner>
          </identifier>
          <code>
            <coding>
              <system value="http://michigan.gov/lara/license-type"/>
              <code value="4305"/>
              <display value="Medical Doctor"/>
            </coding>
          </code>
          <issuer>
            <display value="Michigan Department of Licensing and Regulatory Affairs"/>
          </issuer>
        </qualification>
      </Practitioner>
    </resource>
    <search>
      <mode value="include"/>
    </search>
  </entry>
  <entry>
    <fullUrl value="http://52.90.126.238:8080/fhir/baseDstu3/Endpoint/Endpoint-71"/>
    <resource>
      <Endpoint>
        <id value="71"/>
        <text>
          <status value="generated"/><div xmlns="http://www.w3.org/1999/xhtml"><p><b>Generated Narrative</b></p><p><b>id</b>: 71</p><p><b>status</b>: active</p><p><b>connectionType</b>: <span title="{http://terminology.hl7.org/CodeSystem/endpoint-connection-type direct-project}">Direct Project</span></p><p><b>name</b>: Brenda.Jennings.Richard.MD@direct.example.org</p><p><b>managingOrganization</b>: <a href="Organization-acme-lab.html">Generated Summary: id: acme-lab; 1144221847, 12D4567890; active; <span title="Codes: {http://terminology.hl7.org/CodeSystem/organization-type prov}">Healthcare Provider</span>; name: Acme Labs; ph: (+1) 734-677-7777, hq@acme.org</a></p><p><b>payloadType</b>: <span title="Codes: {urn:oid:1.3.6.1.4.1.19376.1.2.3 urn:hl7-org:sdwg:ccda-structuredBody:1.1}">urn:hl7-org:sdwg:ccda-structuredBody:1.1</span></p><p><b>payloadMimeType</b>: text/xml</p><p><b>address</b>: <a href="mailto:Brenda.Jennings.Richard.MD@direct.example.org">Brenda.Jennings.Richard.MD@direct.example.org</a></p></div>
        </text>
        <status value="active"/>
        <connectionType>
          <system value="http://terminology.hl7.org/CodeSystem/endpoint-connection-type"/>
          <code value="direct-project"/>
        </connectionType>
        <name value="Brenda.Jennings.Richard.MD@direct.example.org"/>
        <managingOrganization>
          <reference value="Organization/acme-lab"/>
        </managingOrganization>
        <payloadType>
          <coding>
            <system value="urn:oid:1.3.6.1.4.1.19376.1.2.3"/>
            <code value="urn:hl7-org:sdwg:ccda-structuredBody:1.1"/>
          </coding>
        </payloadType>
        <payloadMimeType value="text/xml"/>
        <address value="mailto:Brenda.Jennings.Richard.MD@direct.example.org"/>
      </Endpoint>
    </resource>
    <search>
      <mode value="include"/>
    </search>
  </entry>
</Bundle>